2theta chi X Y I
78.211667   1.637311   1027.110000   1293.280000   70931.280
64.327293   -20.827899   1379.170000   1553.580000   51933.840
68.677526   -15.361010   1288.110000   1460.160000   22795.070
105.611434   8.177883   926.220000   872.060000   19489.690
103.854799   27.868333   595.460000   876.440000   19058.790
120.593888   -8.917624   1183.270000   598.920000   17182.880
60.353077   26.482817   626.120000   1661.280000   15825.390
56.264001   12.965178   856.140000   1702.520000   15486.200
82.071971   -35.894495   1672.670000   1258.620000   13318.810
83.348534   -27.459779   1497.400000   1224.700000   13145.990
91.795600   -8.310029   1176.090000   1086.190000   11799.930
81.951559   17.530228   780.270000   1242.530000   11662.160
81.594066   14.547459   828.680000   1246.060000   10727.930
122.297007   14.870951   819.910000   552.840000   10271.900
114.938500   11.532083   873.560000   706.970000   10010.520
54.500870   -2.146291   1085.800000   1725.830000   9107.770
109.465634   -31.679396   1579.390000   754.630000   8515.140
94.636036   -10.942252   1216.490000   1042.280000   8262.020
127.797867   -26.772444   1481.200000   364.840000   6598.440
80.509239   37.214495   399.870000   1297.190000   6505.450
81.765443   30.383361   548.250000   1260.320000   6137.870
83.513758   -21.920091   1396.710000   1217.560000   5781.180
92.187693   -31.339000   1573.490000   1073.130000   5481.590
72.514761   -9.719681   1199.060000   1387.530000   5182.440
120.841627   -19.506034   1352.760000   568.030000   5055.990
97.252461   34.176298   467.050000   984.600000   4950.230
82.186488   25.670754   638.870000   1246.590000   4761.410
96.248654   5.534622   967.150000   1019.900000   4673.940
93.586273   4.862700   977.500000   1060.310000   4649.480
100.141075   22.028458   702.520000   949.880000   4413.680
108.447508   37.751251   383.770000   754.580000   4400.610
98.701368   -15.189685   1283.340000   976.690000   4305.200
132.735970   21.544448   707.200000   261.110000   4170.570
112.906500   -6.100338   1140.930000   748.400000   4160.120
64.382028   22.302908   701.050000   1560.170000   4044.720
92.482504   -38.366391   1730.330000   1063.320000   3856.170
109.580039   9.496175   905.640000   804.810000   3693.430
119.146517   -0.438486   1055.140000   634.640000   3277.590
108.759895   21.930401   703.420000   801.020000   3232.590
98.506542   41.515843   289.690000   945.970000   3125.110
89.844948   -6.658951   1151.050000   1115.850000   3088.730
101.583069   -18.606888   1339.110000   926.870000   2830.160
120.241515   -25.529032   1458.760000   556.690000   2775.350
81.234245   12.479229   861.480000   1250.420000   2670.740
79.718073   40.147023   327.890000   1321.030000   2634.420
112.751198   26.443037   621.540000   713.500000   2612.620
132.171001   -14.836017   1274.860000   306.950000   2377.760
115.338420   -15.087668   1280.510000   691.440000   2278.070
125.622369   -1.021375   1063.250000   497.790000   2195.880
74.514700   -28.638530   1520.650000   1382.650000   2124.740
97.749844   -39.811498   1765.960000   958.470000   2077.070
110.992668   -35.455328   1660.860000   706.310000   2052.310
103.491100   -3.433219   1101.370000   907.290000   1952.150
58.818183   -1.511415   1075.860000   1633.060000   1878.930
91.412462   -26.228686   1473.720000   1088.400000   1877.760
80.385863   -41.821513   1819.620000   1305.460000   1746.380
97.088605   -33.881482   1626.900000   982.640000   1676.950
95.775999   28.904017   576.200000   1016.970000   1646.400
82.202265   22.178149   701.500000   1242.550000   1591.710
105.117168   -23.697425   1426.670000   858.780000   1576.400
64.027550   9.364965   911.320000   1538.140000   1466.190
119.584790   13.541194   841.450000   613.020000   1399.400
125.739863   -11.270436   1219.190000   482.300000   1361.220
124.885231   -32.183026   1588.650000   403.050000   1343.440
65.559995   31.762687   521.920000   1574.920000   1331.830
94.871701   15.602509   810.650000   1039.110000   1277.200
134.574807   4.302774   982.110000   264.380000   1253.580
121.778891   30.702893   537.370000   496.910000   1183.420
93.170902   37.412571   393.710000   1057.160000   1105.270
93.275503   43.153712   245.420000   1050.380000   1055.910
114.153871   -0.067232   1050.010000   728.620000   1019.630
116.650007   41.147253   296.950000   544.570000   943.570
106.076755   32.116195   510.170000   824.170000   887.260
83.058537   -15.286726   1285.920000   1221.220000   860.610
100.468214   -2.667756   1090.080000   954.930000   797.370
111.726516   -37.630502   1711.330000   678.470000   772.050
116.194906   -20.909845   1377.040000   659.840000   708.970
127.024746   17.584808   775.110000   434.930000   706.880
105.501226   18.760733   757.840000   863.720000   703.030
91.600405   4.448709   983.890000   1090.230000   655.210
134.492273   8.032090   925.430000   261.100000   646.940
96.471066   -12.715411   1244.110000   1013.220000   550.970
119.578407   -29.319327   1530.970000   552.130000   492.940
# File created at Wed Jun 14 14:44:42 2023 with IOLaueTools.py
# From: depthcorrected_Ge.dat
# Calibration parameters
# dd     :   67.94982332486313
# xcen     :   1050.811539936238
# ycen     :   1115.6010129572937
# xbet     :   0.10820452259008465
# xgam     :   -0.26796726630661694
# pixelsize     :   0.079142
# ypixelsize     :   0.079142