2theta chi X Y I
73.566006   2.077378   1027.110000   1293.280000   70931.280
61.510163   -19.350059   1379.170000   1553.580000   51933.840
65.286885   -14.086265   1288.110000   1460.160000   22795.070
99.306406   8.627236   926.220000   872.060000   19489.690
97.968769   27.261867   595.460000   876.440000   19058.790
114.989547   -7.315361   1183.270000   598.920000   17182.880
57.647315   25.174431   626.120000   1661.280000   15825.390
54.049981   12.322832   856.140000   1702.520000   15486.200
78.243086   -33.847448   1672.670000   1258.620000   13318.810
79.008112   -25.566566   1497.400000   1224.700000   13145.990
86.199838   -7.124069   1176.090000   1086.190000   11799.930
76.962541   17.080996   780.270000   1242.530000   11662.160
76.610980   14.262005   828.680000   1246.060000   10727.930
116.514215   15.255168   819.910000   552.840000   10271.900
108.762721   11.950789   873.560000   706.970000   10010.520
52.590349   -1.853534   1085.800000   1725.830000   9107.770
104.726290   -29.502508   1579.390000   754.630000   8515.140
88.963642   -9.588296   1216.490000   1042.280000   8262.020
123.694040   -24.480947   1481.200000   364.840000   6598.440
76.077543   35.871652   399.870000   1297.190000   6505.450
77.030756   29.301698   548.250000   1260.320000   6137.870
78.926254   -20.203550   1396.710000   1217.560000   5781.180
87.578512   -29.292665   1573.490000   1073.130000   5481.590
68.609597   -8.692934   1199.060000   1387.530000   5182.440
115.757805   -17.482805   1352.760000   568.030000   5055.990
91.782602   33.211999   467.050000   984.600000   4950.230
77.305783   24.803710   638.870000   1246.590000   4761.410
90.206851   5.996341   967.150000   1019.900000   4673.940
87.684284   5.325784   977.500000   1060.310000   4649.480
94.136695   21.631660   702.520000   949.880000   4413.680
103.041654   36.874319   383.770000   754.580000   4400.610
93.025735   -13.592023   1283.340000   976.690000   4305.200
127.936205   21.857520   707.200000   261.110000   4170.570
106.869467   -4.753252   1140.930000   748.400000   4160.120
61.226618   21.288017   701.050000   1560.170000   4044.720
88.332506   -36.245463   1730.330000   1063.320000   3856.170
103.280075   9.934982   905.640000   804.810000   3693.430
113.220412   0.714979   1055.140000   634.640000   3277.590
102.657324   21.686357   703.420000   801.020000   3232.590
93.392440   40.369890   289.690000   945.970000   3125.110
84.332300   -5.585071   1151.050000   1115.850000   3088.730
95.995721   -16.838948   1339.110000   926.870000   2830.160
115.500420   -23.353427   1458.760000   556.690000   2775.350
76.272598   12.308985   861.480000   1250.420000   2670.740
75.447532   38.713004   327.890000   1321.030000   2634.420
106.860968   26.061229   621.540000   713.500000   2612.620
127.780329   -12.783868   1274.860000   306.950000   2377.760
109.735655   -13.296425   1280.510000   691.440000   2278.070
120.141797   0.285165   1063.250000   497.790000   2195.880
70.913132   -26.784192   1520.650000   1382.650000   2124.740
93.597866   -37.663611   1765.960000   958.470000   2077.070
106.589884   -33.236774   1660.860000   706.310000   2052.310
97.332987   -2.359318   1101.370000   907.290000   1952.150
56.393839   -1.178839   1075.860000   1633.060000   1878.930
86.543566   -24.303990   1473.720000   1088.400000   1877.760
77.001258   -39.753047   1819.620000   1305.460000   1746.380
92.503111   -31.765807   1626.900000   982.640000   1676.950
90.140644   28.116208   576.200000   1016.970000   1646.400
77.254699   21.483711   701.500000   1242.550000   1591.710
99.781989   -21.723689   1426.670000   858.780000   1576.400
60.919121   9.100680   911.320000   1538.140000   1466.190
113.627254   13.939692   841.450000   613.020000   1399.400
120.595489   -9.477110   1219.190000   482.300000   1361.220
120.942712   -29.865464   1588.650000   403.050000   1343.440
62.340233   30.331960   521.920000   1574.920000   1331.830
88.946256   15.462404   810.650000   1039.110000   1277.200
129.868489   5.548535   982.110000   264.380000   1253.580
116.438590   30.334216   537.370000   496.910000   1183.420
88.004396   36.277852   393.710000   1057.160000   1105.270
88.408375   41.887198   245.420000   1050.380000   1055.910
108.010431   0.981764   1050.010000   728.620000   1019.630
111.648434   40.348003   296.950000   544.570000   943.570
100.361076   31.378820   510.170000   824.170000   887.260
78.278358   -13.852724   1285.920000   1221.220000   860.610
94.360578   -1.676857   1090.080000   954.930000   797.370
107.527340   -35.404161   1711.330000   678.470000   772.050
110.944293   -18.901617   1377.040000   659.840000   708.970
121.628755   17.937360   775.110000   434.930000   706.880
99.319612   18.621541   757.840000   863.720000   703.030
85.819328   4.908132   983.890000   1090.230000   655.210
129.747721   9.081953   925.430000   261.100000   646.940
90.777922   -11.254775   1244.110000   1013.220000   550.970
115.067542   -27.084200   1530.970000   552.130000   492.940
# File created at Wed Jun 14 14:55:10 2023 with IOLaueTools.py
# From: /home/micha/lauetoolsgithub/LaueTools/Examples/Ge/depthcorrected_Ge.dat
# Calibration parameters
# dd     :   72.0773644633163
# xcen     :   1062.8504583215565
# ycen     :   1016.4723276456389
# xbet     :   -0.4806178173080838
# xgam     :   0.542446877625991
# pixelsize     :   0.079142
# ypixelsize     :   0.079142